participant_id	d_condition	tau_condition	a_condition	is_test_trial	decision	RT	collision	pet
2381	60	100.0	[0.0, 0.0, 0.0, 0.0]	False	go	3.900	False	nan
2381	60	100.0	[0.0, 0.0, 0.0, 0.0]	False	go	4.017	False	nan
2381	30	4.5	[0.0, 0.0, 0.0, 0.0]	False	stay	0.883	False	nan
2381	30	4.5	[0.0, 3.0, 0.0, 0.0]	False	go	0.850	False	0.0833
2381	30	4.5	[0.0, 3.0, 3.0, 0.0]	False	stay	0.483	False	nan
2381	30	4.5	[0.0, 3.0, -3.0, 0.0]	False	stay	0.700	False	nan
2381	30	4.5	[0.0, -3.0, 0.0, 0.0]	False	go	0.783	False	1.55
2381	30	4.5	[0.0, -3.0, 3.0, 0.0]	False	go	0.517	False	1.0833
2381	30	4.5	[0.0, -3.0, -3.0, 0.0]	False	go	0.567	False	nan
2381	45	4.5	[0.0, 0.0, 0.0, 0.0]	False	stay	1.517	False	nan
2381	45	4.5	[0.0, 3.0, 0.0, 0.0]	False	go	0.817	False	0.5167
2381	45	4.5	[0.0, 3.0, 3.0, 0.0]	False	stay	0.933	False	nan
2381	45	4.5	[0.0, 3.0, -3.0, 0.0]	False	stay	0.817	False	nan
2381	45	4.5	[0.0, -3.0, 0.0, 0.0]	False	go	0.333	False	1.9833
2381	45	4.5	[0.0, -3.0, 3.0, 0.0]	False	go	0.433	False	1.4
2381	45	4.5	[0.0, -3.0, -3.0, 0.0]	False	go	0.583	False	nan
2381	33	3.5	[0.0, 0.0, 0.0, 0.0]	False	None	-1.000	False	nan
2381	45	4.5	[0.0, -3.0, 0.0, 0.0]	True	go	0.750	False	1.5667
2381	41	3.7	[0.0, 0.0, 0.0, 0.0]	False	stay	0.950	False	nan
2381	30	4.5	[0.0, -3.0, 0.0, 0.0]	True	go	0.717	False	1.6167
2381	45	4.5	[0.0, 3.0, -3.0, 0.0]	True	go	1.017	False	0.6667
2381	30	4.5	[0.0, -3.0, 3.0, 0.0]	True	stay	1.050	False	nan
2381	45	4.5	[0.0, -3.0, 3.0, 0.0]	True	go	0.433	False	1.4
2381	30	4.5	[0.0, 3.0, 3.0, 0.0]	True	stay	0.817	False	nan
2381	45	4.5	[0.0, -3.0, -3.0, 0.0]	True	go	0.667	False	nan
2381	45	4.5	[0.0, 3.0, 3.0, 0.0]	True	go	0.883	False	0.1833
2381	45	4.5	[0.0, -3.0, -3.0, 0.0]	True	go	0.950	False	nan
2381	45	4.5	[0.0, -3.0, 3.0, 0.0]	True	go	1.083	False	0.75
2381	45	4.5	[0.0, 3.0, 3.0, 0.0]	True	go	0.683	False	0.3833
2381	30	4.5	[0.0, -3.0, 0.0, 0.0]	True	go	0.750	False	1.5833
2381	45	4.5	[0.0, 3.0, -3.0, 0.0]	True	stay	1.083	False	nan
2381	30	4.5	[0.0, 3.0, 0.0, 0.0]	True	stay	1.267	False	nan
2381	45	4.5	[0.0, -3.0, -3.0, 0.0]	True	go	0.733	False	nan
2381	30	4.5	[0.0, -3.0, 0.0, 0.0]	True	stay	1.317	False	nan
2381	30	4.5	[0.0, 3.0, 3.0, 0.0]	True	stay	1.883	False	nan
2381	30	4.5	[0.0, -3.0, 3.0, 0.0]	True	go	0.750	False	0.85
2381	30	4.5	[0.0, -3.0, 0.0, 0.0]	True	stay	1.150	False	nan
2381	45	4.5	[0.0, -3.0, 0.0, 0.0]	True	go	0.583	False	1.7333
2381	30	4.5	[0.0, 3.0, 3.0, 0.0]	True	go	0.767	True	nan
2381	30	4.5	[0.0, 0.0, 0.0, 0.0]	True	stay	1.217	False	nan
2381	45	4.5	[0.0, 3.0, 3.0, 0.0]	True	go	0.783	False	0.2833
2381	30	4.5	[0.0, 3.0, 3.0, 0.0]	True	stay	1.483	False	nan
2381	30	4.5	[0.0, 0.0, 0.0, 0.0]	True	stay	2.100	False	nan
2381	30	4.5	[0.0, -3.0, 3.0, 0.0]	True	go	0.617	False	0.9833
2381	30	4.5	[0.0, 3.0, -3.0, 0.0]	True	stay	1.133	False	nan
2381	45	4.5	[0.0, -3.0, 3.0, 0.0]	True	go	0.500	False	1.3333
2381	30	4.5	[0.0, 0.0, 0.0, 0.0]	True	go	0.583	False	0.9
2381	45	4.5	[0.0, -3.0, 0.0, 0.0]	True	go	0.550	False	1.7667
2381	30	4.5	[0.0, -3.0, 3.0, 0.0]	True	stay	0.800	False	nan
2381	45	4.5	[0.0, 3.0, -3.0, 0.0]	True	go	0.633	False	1.05
2381	45	4.5	[0.0, 0.0, 0.0, 0.0]	True	go	0.467	False	1.2833
2381	45	4.5	[0.0, -3.0, 0.0, 0.0]	True	go	0.417	False	1.9
2381	45	4.5	[0.0, -3.0, 3.0, 0.0]	True	go	0.583	False	1.25
2381	45	4.5	[0.0, 3.0, 3.0, 0.0]	True	go	0.533	False	0.5333
2381	45	4.5	[0.0, -3.0, 3.0, 0.0]	True	stay	1.700	False	nan
2381	30	4.5	[0.0, 3.0, 0.0, 0.0]	True	go	0.650	False	0.2833
2381	30	4.5	[0.0, -3.0, -3.0, 0.0]	True	go	0.750	False	nan
2381	45	4.5	[0.0, -3.0, -3.0, 0.0]	True	go	0.600	False	nan
2381	30	4.5	[0.0, -3.0, -3.0, 0.0]	True	go	0.583	False	nan
2381	30	4.5	[0.0, 3.0, 0.0, 0.0]	True	go	0.667	False	0.2667
2381	30	4.5	[0.0, 3.0, 0.0, 0.0]	True	go	0.633	False	0.3
2381	30	4.5	[0.0, 3.0, 3.0, 0.0]	True	stay	1.183	False	nan
2381	45	4.5	[0.0, 0.0, 0.0, 0.0]	True	go	0.583	False	1.1667
2381	30	4.5	[0.0, 3.0, 3.0, 0.0]	True	stay	1.117	False	nan
2381	30	4.5	[0.0, -3.0, -3.0, 0.0]	True	stay	0.867	False	nan
2381	45	4.5	[0.0, -3.0, -3.0, 0.0]	True	go	1.150	False	nan
2381	30	4.1	[0.0, -4.36, -0.89, 0.0]	False	go	0.600	False	1.9333
2381	45	4.5	[0.0, 3.0, -3.0, 0.0]	True	go	0.667	False	1.0167
2381	45	4.5	[0.0, 3.0, 0.0, 0.0]	True	stay	0.833	False	nan
2381	30	4.5	[0.0, 3.0, 0.0, 0.0]	True	go	0.417	False	0.5167
2381	45	4.5	[0.0, -3.0, 3.0, 0.0]	True	go	0.367	False	1.4667
2381	30	4.5	[0.0, -3.0, 0.0, 0.0]	True	go	0.983	False	1.35
2381	45	4.5	[0.0, 3.0, 0.0, 0.0]	True	go	0.900	False	0.4333
2381	30	4.5	[0.0, -3.0, 3.0, 0.0]	True	go	1.067	False	0.5333
2381	30	4.5	[0.0, 3.0, 0.0, 0.0]	True	go	0.983	False	-0.05
2381	30	4.5	[0.0, 0.0, 0.0, 0.0]	True	stay	1.333	False	nan
2381	45	4.5	[0.0, -3.0, 3.0, 0.0]	True	go	0.367	False	1.4667
2381	45	4.5	[0.0, 3.0, -3.0, 0.0]	True	go	0.667	False	1.0167
2381	30	4.5	[0.0, 3.0, 0.0, 0.0]	True	stay	1.583	False	nan
2381	30	4.5	[0.0, 3.0, 0.0, 0.0]	True	go	0.617	False	0.3167
2381	45	4.5	[0.0, 3.0, 3.0, 0.0]	True	go	0.400	False	0.6667
2381	30	4.5	[0.0, 3.0, 3.0, 0.0]	True	stay	1.233	False	nan
2381	30	4.5	[0.0, -3.0, 0.0, 0.0]	True	go	0.783	False	1.55
2381	30	4.5	[0.0, -3.0, -3.0, 0.0]	True	go	0.900	False	nan
2381	30	4.5	[0.0, -3.0, 0.0, 0.0]	True	go	1.000	False	1.3333
2381	45	4.5	[0.0, 3.0, 0.0, 0.0]	True	go	0.800	False	0.5333
2381	30	4.5	[0.0, -3.0, 3.0, 0.0]	True	stay	1.750	False	nan
2381	30	4.5	[0.0, -3.0, 3.0, 0.0]	True	go	0.967	False	0.6333
2381	45	4.5	[0.0, 3.0, 3.0, 0.0]	True	go	0.933	False	0.1333
2381	30	4.5	[0.0, 3.0, 0.0, 0.0]	True	stay	1.383	False	nan
2381	45	4.5	[0.0, 0.0, 0.0, 0.0]	True	stay	1.667	False	nan
2381	45	4.5	[0.0, 3.0, 3.0, 0.0]	True	go	0.867	False	0.2
2381	45	4.5	[0.0, -3.0, -3.0, 0.0]	True	stay	1.450	False	nan
2381	45	4.5	[0.0, 3.0, 0.0, 0.0]	True	stay	2.133	False	nan
2381	45	4.5	[0.0, -3.0, 3.0, 0.0]	True	go	1.050	False	0.7833
2381	45	4.5	[0.0, 0.0, 0.0, 0.0]	True	stay	1.217	False	nan
2381	45	4.5	[0.0, 3.0, 0.0, 0.0]	True	go	0.867	False	0.4667
2381	45	4.5	[0.0, 0.0, 0.0, 0.0]	True	stay	1.567	False	nan
2381	45	4.5	[0.0, 0.0, 0.0, 0.0]	True	stay	2.683	False	nan
2381	45	4.5	[0.0, -3.0, 3.0, 0.0]	True	go	0.883	False	0.95
2381	45	4.5	[0.0, -3.0, -3.0, 0.0]	True	stay	1.450	False	nan
2381	45	4.5	[0.0, 3.0, 0.0, 0.0]	True	go	0.683	False	0.65
2381	30	4.5	[0.0, -3.0, -3.0, 0.0]	True	go	1.517	False	nan
2381	30	4.5	[0.0, 3.0, 3.0, 0.0]	True	stay	1.850	False	nan
2381	45	4.5	[0.0, -3.0, -3.0, 0.0]	True	stay	1.683	False	nan
2381	45	4.5	[0.0, 3.0, 0.0, 0.0]	True	stay	2.450	False	nan
2381	45	4.5	[0.0, 3.0, 3.0, 0.0]	True	stay	1.883	False	nan
2381	45	4.5	[0.0, 0.0, 0.0, 0.0]	True	go	1.667	False	0.0833
2381	45	4.5	[0.0, 3.0, 3.0, 0.0]	True	stay	1.700	False	nan
2381	30	4.5	[0.0, -3.0, -3.0, 0.0]	True	go	0.833	False	nan
2381	45	4.5	[0.0, 3.0, -3.0, 0.0]	True	go	0.950	False	0.7333
2381	45	4.5	[0.0, 3.0, -3.0, 0.0]	True	stay	2.933	False	nan
2381	30	4.5	[0.0, -3.0, 3.0, 0.0]	True	go	1.317	False	0.2833
2381	30	4.5	[0.0, -3.0, -3.0, 0.0]	True	go	0.883	False	nan
2381	30	4.5	[0.0, 3.0, 0.0, 0.0]	True	stay	1.283	False	nan
2381	45	4.5	[0.0, -3.0, -3.0, 0.0]	True	go	0.833	False	nan
2381	30	4.5	[0.0, 3.0, 0.0, 0.0]	True	go	0.850	False	0.0833
2381	30	4.5	[0.0, 0.0, 0.0, 0.0]	True	stay	1.500	False	nan
2381	30	4.5	[0.0, 3.0, -3.0, 0.0]	True	go	0.667	False	0.7
2381	45	4.5	[0.0, 3.0, 3.0, 0.0]	True	go	0.800	False	0.2667
2381	30	4.5	[0.0, -3.0, 0.0, 0.0]	True	go	1.400	False	0.9333
2381	45	4.5	[0.0, 3.0, -3.0, 0.0]	True	go	0.750	False	0.9333
2381	45	4.5	[0.0, -3.0, 0.0, 0.0]	True	stay	2.067	False	nan
2381	30	4.5	[0.0, 3.0, -3.0, 0.0]	True	go	0.700	False	0.6667
2381	30	4.5	[0.0, 3.0, 3.0, 0.0]	True	go	0.700	False	-0.05
2381	45	4.5	[0.0, 3.0, 3.0, 0.0]	True	stay	1.717	False	nan
2381	45	4.5	[0.0, -3.0, -3.0, 0.0]	True	go	0.833	False	nan
2381	45	4.5	[0.0, 0.0, 0.0, 0.0]	True	None	-1.000	False	nan
2381	30	4.5	[0.0, 3.0, 3.0, 0.0]	True	go	0.817	True	nan
2381	45	4.5	[0.0, 3.0, 3.0, 0.0]	True	stay	1.683	False	nan
2381	30	4.5	[0.0, 0.0, 0.0, 0.0]	True	go	0.783	False	0.7
2381	30	4.5	[0.0, 0.0, 0.0, 0.0]	True	stay	1.750	False	nan
2381	45	4.5	[0.0, 0.0, 0.0, 0.0]	True	go	0.800	False	0.95
2381	45	4.5	[0.0, 3.0, 0.0, 0.0]	True	go	0.833	False	0.5
2381	45	4.5	[0.0, -3.0, -3.0, 0.0]	True	go	1.617	False	nan
2381	30	4.5	[0.0, -3.0, 0.0, 0.0]	True	go	1.183	False	1.15
2381	30	4.5	[0.0, -3.0, 0.0, 0.0]	True	go	0.800	False	1.5333
2381	45	4.5	[0.0, -3.0, 3.0, 0.0]	True	go	0.417	False	1.4167
2381	45	4.5	[0.0, 3.0, 0.0, 0.0]	True	stay	1.467	False	nan
2381	45	4.5	[0.0, 3.0, 3.0, 0.0]	True	go	0.750	False	0.3167
2381	45	4.5	[0.0, -3.0, 0.0, 0.0]	True	go	0.983	False	1.3333
2381	45	4.5	[0.0, 3.0, -3.0, 0.0]	True	go	1.050	False	0.6333
2381	30	4.5	[0.0, 3.0, -3.0, 0.0]	True	stay	1.800	False	nan
2381	30	4.5	[0.0, 3.0, -3.0, 0.0]	True	go	0.917	False	0.45
2381	45	4.5	[0.0, 3.0, 0.0, 0.0]	True	go	0.750	False	0.5833
2381	30	4.5	[0.0, 0.0, 0.0, 0.0]	True	go	0.783	False	0.7
2381	45	4.5	[0.0, -3.0, 3.0, 0.0]	True	go	0.817	False	1.0167
2381	45	4.5	[0.0, 3.0, -3.0, 0.0]	True	stay	1.800	False	nan
2381	45	4.5	[0.0, 0.0, 0.0, 0.0]	True	go	0.650	False	1.1
2381	30	4.5	[0.0, 3.0, -3.0, 0.0]	True	stay	1.517	False	nan
2381	45	4.5	[0.0, -3.0, 0.0, 0.0]	True	go	0.617	False	1.7
2381	30	4.5	[0.0, -3.0, 3.0, 0.0]	True	go	0.800	False	0.8
2381	45	4.5	[0.0, 3.0, -3.0, 0.0]	True	stay	1.567	False	nan
2381	45	4.5	[0.0, -3.0, 3.0, 0.0]	True	stay	2.217	False	nan
2381	45	4.5	[0.0, -3.0, 3.0, 0.0]	True	go	0.983	False	0.85
2381	30	4.5	[0.0, 3.0, -3.0, 0.0]	True	stay	1.617	False	nan
2381	45	4.5	[0.0, -3.0, -3.0, 0.0]	True	go	0.983	False	nan
2381	45	4.5	[0.0, 3.0, 3.0, 0.0]	True	go	0.000	False	1.0667
2381	30	4.5	[0.0, -3.0, 3.0, 0.0]	True	go	1.100	False	0.5
2381	30	4.5	[0.0, -3.0, 3.0, 0.0]	True	go	1.033	False	0.5667
2381	45	4.5	[0.0, 0.0, 0.0, 0.0]	True	stay	1.983	False	nan
2381	30	4.5	[0.0, 3.0, 0.0, 0.0]	True	go	1.183	True	nan
2381	45	4.5	[0.0, -3.0, -3.0, 0.0]	True	go	1.817	False	nan
2381	30	4.5	[0.0, -3.0, 0.0, 0.0]	True	go	0.950	False	1.3833
2381	30	4.5	[0.0, 3.0, -3.0, 0.0]	True	go	0.833	False	0.5333
2381	45	4.5	[0.0, 3.0, -3.0, 0.0]	True	stay	1.717	False	nan
2381	30	4.5	[0.0, -3.0, 3.0, 0.0]	True	stay	2.317	False	nan
2381	45	4.5	[0.0, -3.0, -3.0, 0.0]	True	go	0.700	False	nan
2381	37	3.6	[0.0, 1.24, 0.0, 0.0]	False	stay	1.450	False	nan
2381	45	4.5	[0.0, -3.0, -3.0, 0.0]	True	go	0.667	False	nan
2381	30	4.5	[0.0, 3.0, 3.0, 0.0]	True	go	1.100	True	nan
2381	45	4.5	[0.0, 3.0, 3.0, 0.0]	True	stay	1.800	False	nan
2381	30	4.5	[0.0, 3.0, 3.0, 0.0]	True	stay	1.733	False	nan
2381	45	4.5	[0.0, -3.0, 3.0, 0.0]	True	go	0.650	False	1.1833
2381	30	4.5	[0.0, 3.0, -3.0, 0.0]	True	stay	1.783	False	nan
2381	45	4.5	[0.0, -3.0, 0.0, 0.0]	True	stay	2.533	False	nan
2381	30	4.5	[0.0, -3.0, 3.0, 0.0]	True	go	1.283	False	0.3167
2381	45	4.5	[0.0, 3.0, -3.0, 0.0]	True	go	1.033	False	0.65
2381	30	4.5	[0.0, -3.0, -3.0, 0.0]	True	go	1.117	False	nan
2381	45	4.5	[0.0, 3.0, 0.0, 0.0]	True	stay	2.567	False	nan
2381	30	4.5	[0.0, -3.0, 0.0, 0.0]	True	stay	2.533	False	nan
2381	30	4.5	[0.0, 3.0, 0.0, 0.0]	True	stay	1.667	False	nan
2381	30	4.5	[0.0, 3.0, -3.0, 0.0]	True	stay	1.583	False	nan
2381	30	4.5	[0.0, -3.0, 3.0, 0.0]	True	go	0.733	False	0.8667
2381	45	4.5	[0.0, 3.0, 0.0, 0.0]	True	go	0.517	False	0.8167
2381	45	4.5	[0.0, -3.0, 0.0, 0.0]	True	stay	1.633	False	nan
2381	30	4.5	[0.0, 0.0, 0.0, 0.0]	True	stay	1.967	False	nan
2381	30	4.5	[0.0, -3.0, -3.0, 0.0]	True	go	0.633	False	nan
2381	30	4.5	[0.0, -3.0, 3.0, 0.0]	True	go	1.033	False	0.5667
2381	30	4.5	[0.0, 0.0, 0.0, 0.0]	True	go	1.133	False	0.35
2381	45	4.5	[0.0, 3.0, 0.0, 0.0]	True	go	0.733	False	0.6
2381	45	4.5	[0.0, -3.0, 0.0, 0.0]	True	go	0.533	False	1.7833
2381	38	3.7	[0.0, 4.3, 0.15, 0.0]	False	stay	1.367	False	nan
2381	30	4.5	[0.0, 0.0, 0.0, 0.0]	True	go	0.767	False	0.7167
2381	30	4.5	[0.0, 3.0, 0.0, 0.0]	True	go	0.617	False	0.3167
2381	30	4.5	[0.0, 0.0, 0.0, 0.0]	True	stay	1.833	False	nan
2381	30	4.5	[0.0, 3.0, -3.0, 0.0]	True	stay	1.317	False	nan
2381	41	4.8	[0.0, -5.77, 4.36, 0.0]	False	go	0.633	False	1.75
2381	30	4.5	[0.0, 3.0, -3.0, 0.0]	True	go	0.817	False	0.55
2381	30	4.5	[0.0, 3.0, -3.0, 0.0]	True	go	0.583	False	0.7833
2381	45	4.5	[0.0, -3.0, -3.0, 0.0]	True	go	1.983	False	nan
2381	45	4.5	[0.0, -3.0, 3.0, 0.0]	True	go	1.100	False	0.7333
2381	30	4.5	[0.0, 3.0, 3.0, 0.0]	True	go	0.817	True	nan
2381	45	4.5	[0.0, -3.0, 3.0, 0.0]	True	stay	2.667	False	nan
2381	30	4.5	[0.0, 0.0, 0.0, 0.0]	True	stay	1.833	False	nan
2381	45	4.5	[0.0, 0.0, 0.0, 0.0]	True	go	0.717	False	1.0333
2381	30	4.5	[0.0, -3.0, 3.0, 0.0]	True	go	0.700	False	0.9
2381	30	4.5	[0.0, -3.0, 0.0, 0.0]	True	go	0.550	False	1.7833
2381	30	4.5	[0.0, -3.0, -3.0, 0.0]	True	go	1.667	False	nan
2381	30	4.5	[0.0, 3.0, 3.0, 0.0]	True	stay	1.800	False	nan
2381	45	4.5	[0.0, -3.0, 3.0, 0.0]	True	go	0.617	False	1.2167
2381	30	4.5	[0.0, 3.0, -3.0, 0.0]	True	go	0.467	False	0.9
2381	45	4.5	[0.0, 3.0, -3.0, 0.0]	True	stay	1.983	False	nan
2381	45	4.5	[0.0, 0.0, 0.0, 0.0]	True	go	0.683	False	1.0667
2381	30	4.5	[0.0, 3.0, 3.0, 0.0]	True	go	0.650	False	0.0
2381	45	4.5	[0.0, 0.0, 0.0, 0.0]	True	stay	2.317	False	nan
2381	30	4.5	[0.0, -3.0, 0.0, 0.0]	True	stay	2.733	False	nan
2381	30	4.5	[0.0, 3.0, -3.0, 0.0]	True	stay	2.033	False	nan
2381	30	4.5	[0.0, 3.0, 0.0, 0.0]	True	stay	1.833	False	nan
2381	30	4.5	[0.0, -3.0, 0.0, 0.0]	True	go	1.150	False	1.1833
2381	45	4.5	[0.0, -3.0, 3.0, 0.0]	True	stay	2.033	False	nan
2381	30	4.5	[0.0, 3.0, 0.0, 0.0]	True	None	-1.000	False	nan
2381	30	4.5	[0.0, 3.0, -3.0, 0.0]	True	stay	1.600	False	nan
2381	30	4.5	[0.0, -3.0, 3.0, 0.0]	True	go	1.200	False	0.4
2381	45	4.5	[0.0, 3.0, -3.0, 0.0]	True	stay	1.500	False	nan
2381	30	4.5	[0.0, 3.0, 3.0, 0.0]	True	stay	1.583	False	nan
2381	45	4.5	[0.0, -3.0, 0.0, 0.0]	True	go	0.700	False	1.6167
2381	45	4.5	[0.0, -3.0, -3.0, 0.0]	True	go	1.267	False	nan
2381	30	4.5	[0.0, 3.0, 0.0, 0.0]	True	stay	1.433	False	nan
2381	30	4.5	[0.0, -3.0, 0.0, 0.0]	True	go	1.267	False	1.0667
2381	30	4.5	[0.0, 0.0, 0.0, 0.0]	True	stay	1.717	False	nan
2381	30	4.5	[0.0, 3.0, 3.0, 0.0]	True	stay	1.667	False	nan
2381	45	4.5	[0.0, -3.0, -3.0, 0.0]	True	go	0.517	False	nan
2381	45	4.5	[0.0, -3.0, 3.0, 0.0]	True	go	1.283	False	0.55
2381	45	4.5	[0.0, -3.0, 0.0, 0.0]	True	stay	2.083	False	nan
2381	30	4.5	[0.0, -3.0, 3.0, 0.0]	True	go	1.583	False	0.0167
2381	45	4.5	[0.0, 3.0, -3.0, 0.0]	True	stay	1.600	False	nan
2381	30	4.5	[0.0, -3.0, -3.0, 0.0]	True	go	1.200	False	nan
2381	45	4.5	[0.0, 3.0, -3.0, 0.0]	True	stay	1.550	False	nan
2381	45	4.5	[0.0, 3.0, 0.0, 0.0]	True	stay	1.767	False	nan
2381	30	4.5	[0.0, -3.0, 0.0, 0.0]	True	go	0.967	False	1.3667
2381	45	4.5	[0.0, 0.0, 0.0, 0.0]	True	stay	2.500	False	nan
2381	45	4.5	[0.0, -3.0, 3.0, 0.0]	True	go	1.033	False	0.8
2381	45	4.5	[0.0, -3.0, -3.0, 0.0]	True	go	1.750	False	nan
2381	30	4.5	[0.0, 3.0, -3.0, 0.0]	True	stay	1.567	False	nan
2381	30	4.5	[0.0, -3.0, -3.0, 0.0]	True	go	1.217	False	nan
2381	45	4.5	[0.0, -3.0, 0.0, 0.0]	True	go	1.600	False	0.7167
2381	45	4.5	[0.0, -3.0, 0.0, 0.0]	True	stay	1.850	False	nan
2381	30	4.5	[0.0, -3.0, -3.0, 0.0]	True	go	1.450	False	nan
2381	45	4.5	[0.0, -3.0, 0.0, 0.0]	True	go	1.367	False	0.95
2381	30	4.5	[0.0, -3.0, -3.0, 0.0]	True	go	1.033	False	nan
2381	31	4.6	[0.0, -2.06, 0.0, 0.0]	False	go	1.433	False	0.7333
2381	38	3.1	[0.0, -0.75, 5.38, 0.0]	False	stay	1.100	False	nan
2381	30	4.5	[0.0, -3.0, 0.0, 0.0]	True	stay	2.783	False	nan
2381	45	4.5	[0.0, -3.0, -3.0, 0.0]	True	go	1.183	False	nan
2381	45	4.5	[0.0, 3.0, 0.0, 0.0]	True	go	1.017	False	0.3167
2381	45	4.5	[0.0, 0.0, 0.0, 0.0]	True	stay	1.850	False	nan
2381	45	4.5	[0.0, 3.0, 0.0, 0.0]	True	stay	1.967	False	nan
2381	45	4.5	[0.0, 3.0, -3.0, 0.0]	True	stay	2.083	False	nan
2381	45	4.5	[0.0, 3.0, -3.0, 0.0]	True	stay	2.433	False	nan
2381	30	4.5	[0.0, 0.0, 0.0, 0.0]	True	stay	2.883	False	nan
2381	45	4.5	[0.0, 0.0, 0.0, 0.0]	True	go	0.750	False	1.0
2381	45	4.5	[0.0, 0.0, 0.0, 0.0]	True	stay	1.617	False	nan
2381	45	4.5	[0.0, -3.0, 0.0, 0.0]	True	go	1.283	False	1.0333
2381	41	4.9	[0.0, 4.06, -1.68, 0.0]	False	go	1.100	False	0.4833
2381	30	4.5	[0.0, -3.0, 0.0, 0.0]	True	go	0.717	False	1.6167
2381	30	4.5	[0.0, 3.0, 3.0, 0.0]	True	go	0.867	True	nan
2381	45	4.5	[0.0, 3.0, -3.0, 0.0]	True	stay	1.783	False	nan
2381	30	4.5	[0.0, -3.0, 0.0, 0.0]	True	go	0.750	False	1.5833
2381	45	4.5	[0.0, 3.0, 0.0, 0.0]	True	stay	2.333	False	nan
2381	45	4.5	[0.0, -3.0, -3.0, 0.0]	True	go	1.317	False	nan
2381	45	4.5	[0.0, 3.0, 3.0, 0.0]	True	stay	1.083	False	nan
2381	45	4.5	[0.0, 0.0, 0.0, 0.0]	True	go	0.750	False	1.0
2381	45	4.5	[0.0, 3.0, -3.0, 0.0]	True	stay	1.317	False	nan
2381	45	4.5	[0.0, -3.0, 3.0, 0.0]	True	stay	2.367	False	nan
2381	30	4.5	[0.0, 0.0, 0.0, 0.0]	True	go	0.733	False	0.75
2381	30	4.5	[0.0, 0.0, 0.0, 0.0]	True	go	0.783	False	0.7
2381	31	4.3	[0.0, 2.34, -1.6, 0.0]	False	stay	1.500	False	nan
2381	30	4.5	[0.0, -3.0, 3.0, 0.0]	True	stay	2.033	False	nan
2381	30	4.5	[0.0, 3.0, 3.0, 0.0]	True	stay	1.817	False	nan
2381	30	4.5	[0.0, -3.0, 0.0, 0.0]	True	stay	2.350	False	nan
2381	30	4.5	[0.0, 3.0, -3.0, 0.0]	True	go	1.067	False	0.3
2381	45	4.5	[0.0, -3.0, 0.0, 0.0]	True	go	0.767	False	1.55
2381	30	4.5	[0.0, -3.0, 3.0, 0.0]	True	stay	2.400	False	nan
2381	45	4.5	[0.0, -3.0, 0.0, 0.0]	True	go	0.617	False	1.7
2381	45	4.5	[0.0, -3.0, 0.0, 0.0]	True	stay	1.967	False	nan
2381	30	4.5	[0.0, 3.0, -3.0, 0.0]	True	go	0.800	False	0.5667
2381	45	4.5	[0.0, -3.0, -3.0, 0.0]	True	stay	2.650	False	nan
2381	45	4.5	[0.0, -3.0, 0.0, 0.0]	True	go	1.200	False	1.1167
2381	30	4.5	[0.0, 0.0, 0.0, 0.0]	True	go	1.083	False	0.4
2381	30	4.5	[0.0, -3.0, 0.0, 0.0]	True	stay	2.650	False	nan
2381	45	4.5	[0.0, 3.0, 3.0, 0.0]	True	stay	1.533	False	nan
2381	45	4.5	[0.0, 3.0, 3.0, 0.0]	True	stay	1.483	False	nan
2381	30	4.5	[0.0, 3.0, -3.0, 0.0]	True	None	-1.000	False	nan
2381	45	4.5	[0.0, -3.0, -3.0, 0.0]	True	go	0.983	False	nan
2381	45	4.5	[0.0, 3.0, 0.0, 0.0]	True	stay	1.867	False	nan
2381	45	4.5	[0.0, -3.0, -3.0, 0.0]	True	stay	4.083	False	nan
2381	30	4.5	[0.0, -3.0, -3.0, 0.0]	True	go	1.017	False	nan
2381	30	4.5	[0.0, 1.78, 0.0, 0.0]	False	stay	1.550	False	nan
2381	45	4.5	[0.0, 3.0, -3.0, 0.0]	True	stay	1.750	False	nan
2381	30	4.5	[0.0, 3.0, 3.0, 0.0]	True	go	0.983	True	nan
2381	45	4.5	[0.0, 0.0, 0.0, 0.0]	True	go	1.400	False	0.35
2381	45	4.5	[0.0, 3.0, -3.0, 0.0]	True	stay	1.900	False	nan
2381	30	4.5	[0.0, 3.0, -3.0, 0.0]	True	stay	1.650	False	nan
2381	30	4.5	[0.0, -3.0, -3.0, 0.0]	True	go	0.700	False	nan
2381	45	4.5	[0.0, -3.0, 0.0, 0.0]	True	stay	1.733	False	nan
2381	45	4.5	[0.0, 0.0, 0.0, 0.0]	True	stay	2.000	False	nan
2381	45	4.5	[0.0, -3.0, -3.0, 0.0]	True	go	1.650	False	nan
2381	30	4.5	[0.0, -3.0, -3.0, 0.0]	True	go	1.383	False	nan
2381	45	4.5	[0.0, -3.0, 3.0, 0.0]	True	go	1.283	False	0.55
2381	30	4.5	[0.0, -3.0, 3.0, 0.0]	True	go	1.200	False	0.4
2381	45	4.5	[0.0, 3.0, 0.0, 0.0]	True	stay	1.783	False	nan
2381	30	4.5	[0.0, 3.0, 0.0, 0.0]	True	stay	1.633	False	nan
2381	45	4.5	[0.0, -3.0, 0.0, 0.0]	True	stay	2.067	False	nan
2381	45	4.5	[0.0, 3.0, 3.0, 0.0]	True	stay	2.017	False	nan
2381	30	4.5	[0.0, 3.0, 0.0, 0.0]	True	stay	1.750	False	nan
2381	45	4.5	[0.0, -3.0, -3.0, 0.0]	True	go	1.800	False	nan
2381	30	4.5	[0.0, -3.0, 0.0, 0.0]	True	go	1.200	False	1.1333
2381	30	4.5	[0.0, 0.0, 0.0, 0.0]	True	stay	2.167	False	nan
2381	30	4.5	[0.0, 0.0, 0.0, 0.0]	True	go	1.633	True	nan
2381	45	4.5	[0.0, 3.0, 0.0, 0.0]	True	stay	1.600	False	nan
2381	30	4.5	[0.0, 0.0, 0.0, 0.0]	True	go	0.867	False	0.6167
2381	45	4.5	[0.0, 3.0, 0.0, 0.0]	True	go	0.917	False	0.4167
2381	30	4.5	[0.0, 3.0, -3.0, 0.0]	True	go	0.983	False	0.3833
2381	30	4.5	[0.0, 3.0, 3.0, 0.0]	True	stay	1.283	False	nan
2381	30	4.5	[0.0, 3.0, 3.0, 0.0]	True	stay	1.533	False	nan
2381	30	4.5	[0.0, -3.0, 3.0, 0.0]	True	stay	2.217	False	nan
2381	30	4.5	[0.0, 3.0, 3.0, 0.0]	True	stay	2.050	False	nan
2381	45	4.5	[0.0, 0.0, 0.0, 0.0]	True	stay	1.883	False	nan
2381	45	4.5	[0.0, 3.0, 0.0, 0.0]	True	stay	2.000	False	nan
2381	30	4.5	[0.0, 3.0, 0.0, 0.0]	True	stay	2.133	False	nan
2381	30	4.5	[0.0, -3.0, 0.0, 0.0]	True	stay	3.617	False	nan
2381	45	4.5	[0.0, 0.0, 0.0, 0.0]	True	stay	1.950	False	nan
2381	44	4.0	[0.0, 0.87, 0.0, 0.0]	False	stay	1.183	False	nan
2381	30	4.5	[0.0, -3.0, 3.0, 0.0]	True	go	1.383	False	0.2167
2381	30	4.5	[0.0, 0.0, 0.0, 0.0]	True	stay	1.317	False	nan
2381	45	4.5	[0.0, 3.0, -3.0, 0.0]	True	stay	1.717	False	nan
2381	45	4.5	[0.0, 0.0, 0.0, 0.0]	True	go	0.817	False	0.9333
2381	45	4.5	[0.0, 0.0, 0.0, 0.0]	True	stay	1.233	False	nan
2381	30	4.5	[0.0, -3.0, -3.0, 0.0]	True	go	0.983	False	nan
2381	30	4.5	[0.0, -3.0, -3.0, 0.0]	True	go	0.883	False	nan
2381	45	4.5	[0.0, -3.0, 0.0, 0.0]	True	go	0.617	False	1.7
2381	45	4.5	[0.0, 3.0, 3.0, 0.0]	True	stay	1.383	False	nan
2381	30	4.5	[0.0, 3.0, 0.0, 0.0]	True	stay	1.700	False	nan
2381	45	4.5	[0.0, -3.0, 3.0, 0.0]	True	go	0.683	False	1.15
2381	30	4.5	[0.0, 3.0, 3.0, 0.0]	True	stay	1.367	False	nan
2381	45	4.5	[0.0, -3.0, 3.0, 0.0]	True	stay	1.833	False	nan
2381	45	4.5	[0.0, 3.0, 0.0, 0.0]	True	go	0.650	False	0.6833
2381	30	4.5	[0.0, -3.0, -3.0, 0.0]	True	go	1.467	False	nan
2381	30	4.5	[0.0, -3.0, 0.0, 0.0]	True	stay	1.450	False	nan
2381	30	4.5	[0.0, 0.0, 0.0, 0.0]	True	go	0.750	False	0.7333
2381	30	4.5	[0.0, 0.0, 0.0, 0.0]	True	stay	1.517	False	nan
2381	30	4.5	[0.0, -3.0, 0.0, 0.0]	True	go	0.817	False	1.5167
2381	45	4.5	[0.0, 3.0, -3.0, 0.0]	True	stay	1.567	False	nan
2381	31	3.5	[0.0, -5.52, -0.48, 0.0]	False	stay	2.100	False	nan
2381	45	4.5	[0.0, -3.0, 0.0, 0.0]	True	go	1.117	False	1.2
2381	30	4.5	[0.0, -3.0, 0.0, 0.0]	True	go	1.600	False	0.7333
2381	30	4.5	[0.0, 3.0, 3.0, 0.0]	True	stay	1.567	False	nan
2381	45	4.5	[0.0, 3.0, 0.0, 0.0]	True	go	0.917	False	0.4167
2381	30	4.5	[0.0, 3.0, 3.0, 0.0]	True	go	0.783	True	nan
2381	30	4.5	[0.0, 3.0, 0.0, 0.0]	True	stay	1.500	False	nan
2381	30	4.5	[0.0, -3.0, 3.0, 0.0]	True	go	1.733	True	nan
2381	45	4.5	[0.0, 0.0, 0.0, 0.0]	True	stay	1.950	False	nan
2381	34	3.8	[0.0, -4.38, -5.02, 0.0]	False	go	1.767	False	nan
2381	45	4.5	[0.0, -3.0, -3.0, 0.0]	True	go	1.883	False	nan
2381	45	4.5	[0.0, 0.0, 0.0, 0.0]	True	go	0.483	False	1.2667
2381	34	3.9	[0.0, 0.0, 0.0, 0.0]	False	stay	1.267	False	nan
2381	45	4.5	[0.0, 3.0, 3.0, 0.0]	True	stay	1.533	False	nan
2381	30	4.5	[0.0, 3.0, 0.0, 0.0]	True	stay	1.400	False	nan
2381	45	4.5	[0.0, 3.0, 3.0, 0.0]	True	go	0.850	False	0.2167
2381	30	4.5	[0.0, -3.0, 3.0, 0.0]	True	go	1.517	False	0.0833
2381	45	4.5	[0.0, 3.0, 0.0, 0.0]	True	stay	1.650	False	nan
2381	45	4.5	[0.0, -3.0, -3.0, 0.0]	True	go	1.650	False	nan
2381	30	4.5	[0.0, 3.0, 0.0, 0.0]	True	stay	1.450	False	nan
2381	45	4.5	[0.0, 3.0, -3.0, 0.0]	True	stay	1.883	False	nan
2381	45	4.5	[0.0, 3.0, 3.0, 0.0]	True	stay	1.667	False	nan
2381	30	4.5	[0.0, 0.0, 0.0, 0.0]	True	stay	1.733	False	nan
2381	45	4.5	[0.0, -3.0, 3.0, 0.0]	True	stay	1.750	False	nan
2381	30	4.5	[0.0, -3.0, -3.0, 0.0]	True	go	1.650	False	nan
2381	30	4.5	[0.0, 3.0, 0.0, 0.0]	True	stay	1.500	False	nan
2381	30	4.5	[0.0, 0.0, 0.0, 0.0]	True	stay	1.483	False	nan
2381	45	4.5	[0.0, -3.0, 0.0, 0.0]	True	stay	1.383	False	nan
2381	45	4.5	[0.0, -3.0, 3.0, 0.0]	True	stay	2.250	False	nan
2381	40	2.9	[0.0, 4.53, 0.45, 0.0]	False	stay	1.017	False	nan
2381	45	4.5	[0.0, -3.0, 3.0, 0.0]	True	stay	2.083	False	nan
2381	30	4.5	[0.0, -3.0, 0.0, 0.0]	True	go	1.200	False	1.1333
2381	30	4.5	[0.0, 0.0, 0.0, 0.0]	True	go	0.833	False	0.65
2381	30	4.5	[0.0, -3.0, 0.0, 0.0]	True	go	1.350	False	0.9833
2381	30	4.5	[0.0, 3.0, 3.0, 0.0]	True	go	1.050	True	nan
2381	45	4.5	[0.0, -3.0, -3.0, 0.0]	True	stay	3.000	False	nan
2381	45	4.5	[0.0, -3.0, 3.0, 0.0]	True	stay	2.150	False	nan
2381	45	4.5	[0.0, 0.0, 0.0, 0.0]	True	go	0.867	False	0.8833
2381	30	4.5	[0.0, -3.0, -3.0, 0.0]	True	go	1.683	False	nan
2381	30	4.5	[0.0, 3.0, 0.0, 0.0]	True	stay	1.767	False	nan
2381	45	4.5	[0.0, 3.0, 0.0, 0.0]	True	go	0.667	False	0.6667
2381	45	4.5	[0.0, 3.0, 3.0, 0.0]	True	stay	1.450	False	nan
2381	45	4.5	[0.0, 3.0, 3.0, 0.0]	True	stay	1.500	False	nan
2381	45	4.5	[0.0, 3.0, -3.0, 0.0]	True	go	0.683	False	1.0
2381	30	4.5	[0.0, -3.0, 3.0, 0.0]	True	go	1.383	False	0.2167
2381	30	4.5	[0.0, -3.0, -3.0, 0.0]	True	go	1.350	False	nan
2381	30	4.5	[0.0, 3.0, 0.0, 0.0]	True	stay	2.117	False	nan
2381	30	4.5	[0.0, 3.0, 3.0, 0.0]	True	stay	1.517	False	nan
2381	30	4.5	[0.0, -3.0, -3.0, 0.0]	True	go	0.567	False	nan
2381	45	4.5	[0.0, -3.0, 0.0, 0.0]	True	go	1.417	False	0.9
2381	30	4.5	[0.0, 3.0, -3.0, 0.0]	True	stay	1.650	False	nan
2381	30	4.5	[0.0, 3.0, -3.0, 0.0]	True	stay	1.817	False	nan
2381	30	4.5	[0.0, 3.0, -3.0, 0.0]	True	stay	1.617	False	nan
2381	45	4.5	[0.0, -3.0, 3.0, 0.0]	True	go	0.683	False	1.15
2381	45	4.5	[0.0, 3.0, -3.0, 0.0]	True	go	0.717	False	0.9667
2381	45	4.5	[0.0, 0.0, 0.0, 0.0]	True	stay	1.317	False	nan
2381	30	4.5	[0.0, 3.0, 3.0, 0.0]	True	go	0.683	False	-0.0333
2381	30	4.5	[0.0, -3.0, -3.0, 0.0]	True	go	1.800	False	nan
2381	30	4.5	[0.0, 0.0, 0.0, 0.0]	True	stay	1.883	False	nan
2381	30	4.5	[0.0, -3.0, 3.0, 0.0]	True	stay	2.000	False	nan
2381	45	4.5	[0.0, -3.0, 0.0, 0.0]	True	go	0.700	False	1.6167
2381	30	4.5	[0.0, 3.0, -3.0, 0.0]	True	stay	1.583	False	nan
2381	30	4.5	[0.0, 3.0, -3.0, 0.0]	True	stay	1.333	False	nan
2381	30	4.5	[0.0, -3.0, -3.0, 0.0]	True	go	1.567	False	nan
2381	45	4.5	[0.0, -3.0, 0.0, 0.0]	True	go	0.800	False	1.5167
2381	34	2.6	[0.0, 2.14, -0.34, 0.0]	False	stay	1.000	False	nan
2381	45	4.5	[0.0, 3.0, 3.0, 0.0]	True	go	1.033	False	0.0333
2381	45	4.5	[0.0, -3.0, 3.0, 0.0]	True	go	1.333	False	0.5
2381	45	4.5	[0.0, 3.0, 0.0, 0.0]	True	stay	1.833	False	nan
2381	45	4.5	[0.0, -3.0, 0.0, 0.0]	True	go	0.583	False	1.7333
2381	45	4.5	[0.0, 3.0, 3.0, 0.0]	True	go	0.750	False	0.3167
2381	34	4.6	[0.0, 0.0, 0.0, 0.0]	False	go	1.067	False	0.5667
2381	45	4.5	[0.0, 3.0, 3.0, 0.0]	True	stay	1.300	False	nan
2381	30	4.5	[0.0, -3.0, 3.0, 0.0]	True	go	0.800	False	0.8
2381	36	3.9	[0.0, -3.42, -5.2, 0.0]	False	go	1.800	False	nan
2381	30	4.5	[0.0, -3.0, -3.0, 0.0]	True	go	1.467	False	nan
2381	30	4.5	[0.0, 3.0, -3.0, 0.0]	True	stay	1.383	False	nan
2381	45	4.5	[0.0, -3.0, 0.0, 0.0]	True	go	0.800	False	1.5167
2381	45	4.5	[0.0, 3.0, 3.0, 0.0]	True	go	0.650	False	0.4167
2381	30	4.5	[0.0, 0.0, 0.0, 0.0]	True	stay	2.150	False	nan
2381	45	4.5	[0.0, 3.0, -3.0, 0.0]	True	stay	1.733	False	nan
2381	45	4.5	[0.0, 3.0, 0.0, 0.0]	True	stay	1.500	False	nan
2381	30	4.5	[0.0, -3.0, 3.0, 0.0]	True	go	1.017	False	0.5833
2381	30	4.5	[0.0, 3.0, 0.0, 0.0]	True	stay	1.600	False	nan
2381	30	4.5	[0.0, 3.0, -3.0, 0.0]	True	go	1.050	False	0.3167
2381	30	4.5	[0.0, -3.0, -3.0, 0.0]	True	go	1.183	False	nan
2381	30	4.5	[0.0, -3.0, 0.0, 0.0]	True	go	1.833	False	0.5
2381	30	4.5	[0.0, 3.0, -3.0, 0.0]	True	None	-1.000	False	nan
2381	30	4.5	[0.0, 3.0, 0.0, 0.0]	True	stay	1.400	False	nan
2381	34	4.9	[0.0, 1.5, 4.41, 0.0]	False	go	0.850	False	0.2167
2381	30	4.5	[0.0, 3.0, 3.0, 0.0]	True	go	0.633	False	0.0167
2381	30	4.5	[0.0, -3.0, 3.0, 0.0]	True	go	0.933	False	0.6667
2381	30	4.5	[0.0, 0.0, 0.0, 0.0]	True	stay	1.617	False	nan
2381	45	4.5	[0.0, 3.0, 0.0, 0.0]	True	go	0.583	False	0.75
2381	30	4.5	[0.0, -3.0, -3.0, 0.0]	True	go	1.733	False	nan
2381	30	4.5	[0.0, 3.0, 0.0, 0.0]	True	stay	1.500	False	nan
2381	39	3.4	[0.0, -0.44, 0.68, 0.0]	False	stay	1.117	False	nan
2381	30	4.5	[0.0, -3.0, -3.0, 0.0]	True	go	1.167	False	nan
2381	45	4.5	[0.0, 0.0, 0.0, 0.0]	True	stay	1.300	False	nan
2381	45	4.5	[0.0, -3.0, -3.0, 0.0]	True	stay	0.983	False	nan
2381	45	4.5	[0.0, 3.0, -3.0, 0.0]	True	stay	1.350	False	nan
2381	45	4.5	[0.0, 3.0, 0.0, 0.0]	True	go	0.733	False	0.6
2381	45	4.5	[0.0, 3.0, 3.0, 0.0]	True	go	1.000	False	0.0667
